standard,domain,required_variables,key_variables,source_folder
SDTM,DM,STUDYID DOMAIN USUBJID SUBJID SEX RACE RFSTDTC ARMCD,USUBJID,data/sdtm/csv
SDTM,DS,STUDYID DOMAIN USUBJID DSSTDTC DSDECOD,USUBJID,data/sdtm/csv
ADAM,ADSL,STUDYID USUBJID SEX RACE ARMCD EOSSTT DCSREAS,USUBJID,data/adam/csv
